{
  "resourceType" : "Bundle",
  "id" : "BundleHepatitisPanel",
  "meta" : {
    "profile" : ["http://hl7.eu/fhir/laboratory/StructureDefinition/Bundle-eu-lab"]
  },
  "identifier" : {
    "system" : "http://example.org",
    "value" : "V1CZ454557891308174803488707671420"
  },
  "type" : "document",
  "timestamp" : "2022-10-25T14:30:00+01:00",
  "entry" : [{
    "fullUrl" : "urn:uuid:4028a0b8-37fc-4491-a8e7-0f28e6fc59b4",
    "resource" : {
      "resourceType" : "Composition",
      "id" : "4028a0b8-37fc-4491-a8e7-0f28e6fc59b4",
      "text" : {
        "status" : "generated",
        "div" : "<div xmlns=\"http://www.w3.org/1999/xhtml\"><a name=\"Composition_4028a0b8-37fc-4491-a8e7-0f28e6fc59b4\"> </a><p class=\"res-header-id\"><b>Generated Narrative: Composition 4028a0b8-37fc-4491-a8e7-0f28e6fc59b4</b></p><a name=\"4028a0b8-37fc-4491-a8e7-0f28e6fc59b4\"> </a><a name=\"hc4028a0b8-37fc-4491-a8e7-0f28e6fc59b4\"> </a><a name=\"4028a0b8-37fc-4491-a8e7-0f28e6fc59b4-en-US\"> </a><p><b>status</b>: Final</p><p><b>type</b>: <span title=\"Codes:{http://loinc.org 11502-2}\">Laboratory report</span></p><p><b>date</b>: 2022-10-25 14:30:00+0100</p><p><b>author</b>: MUDr. Aleš Procházka</p><p><b>title</b>: Laboratory Report Hepatitis Panel - 27 Dec, 2020 14:30</p><p><b>confidentiality</b>: normal</p><h3>Attesters</h3><table class=\"grid\"><tr><td style=\"display: none\">-</td><td><b>Mode</b></td><td><b>Time</b></td><td><b>Party</b></td></tr><tr><td style=\"display: none\">*</td><td>Legal</td><td>2020-12-27 14:30:00+0100</td><td><a href=\"Bundle-BundleHepatitisPanel.html#urn-uuid-608b5309-2609-4d03-b6da-c758bfa1de70\">Bundle: identifier = http://example.org#V1CZ454557891308174803488707671420; type = document; timestamp = 2022-10-25 14:30:00+0100</a></td></tr></table><p><b>custodian</b>: <a href=\"Bundle-BundleHepatitisPanel.html#urn-uuid-608b5309-2609-4d03-b6da-c758bfa1de70\">Bundle: identifier = http://example.org#V1CZ454557891308174803488707671420; type = document; timestamp = 2022-10-25 14:30:00+0100</a></p></div>"
      },
      "status" : "final",
      "type" : {
        "coding" : [{
          "system" : "http://loinc.org",
          "code" : "11502-2",
          "display" : "Laboratory report"
        }]
      },
      "subject" : {
        "reference" : "urn:uuid:8472931c-fbd0-437b-9ed1-4f66472c78b5"
      },
      "date" : "2022-10-25T14:30:00+01:00",
      "author" : [{
        "display" : "MUDr. Aleš Procházka"
      }],
      "title" : "Laboratory Report Hepatitis Panel - 27 Dec, 2020 14:30",
      "confidentiality" : "N",
      "attester" : [{
        "mode" : "legal",
        "time" : "2020-12-27T14:30:00+01:00",
        "party" : {
          "reference" : "urn:uuid:608b5309-2609-4d03-b6da-c758bfa1de70"
        }
      }],
      "custodian" : {
        "reference" : "urn:uuid:608b5309-2609-4d03-b6da-c758bfa1de70"
      },
      "section" : [{
        "title" : "Hepatitis screening panel",
        "code" : {
          "coding" : [{
            "system" : "http://example.org/lab-codes",
            "code" : "3002989",
            "display" : "Hepatitis Panel, Acute with Reflex to HBsAg Confirmation and Reflex to HCV by Quantitative NAAT"
          }],
          "text" : "Acute Hepatitis Panel, reflex to confirmation"
        },
        "entry" : [{
          "reference" : "urn:uuid:2c72163e-b741-44a3-aff7-c52f17f7a1ba"
        }]
      }]
    }
  },
  {
    "fullUrl" : "urn:uuid:8472931c-fbd0-437b-9ed1-4f66472c78b5",
    "resource" : {
      "resourceType" : "Patient",
      "id" : "8472931c-fbd0-437b-9ed1-4f66472c78b5",
      "text" : {
        "status" : "generated",
        "div" : "<div xmlns=\"http://www.w3.org/1999/xhtml\"><a name=\"Patient_8472931c-fbd0-437b-9ed1-4f66472c78b5\"> </a><p class=\"res-header-id\"><b>Generated Narrative: Patient 8472931c-fbd0-437b-9ed1-4f66472c78b5</b></p><a name=\"8472931c-fbd0-437b-9ed1-4f66472c78b5\"> </a><a name=\"hc8472931c-fbd0-437b-9ed1-4f66472c78b5\"> </a><a name=\"8472931c-fbd0-437b-9ed1-4f66472c78b5-en-US\"> </a><p style=\"border: 1px #661aff solid; background-color: #e6e6ff; padding: 10px;\">František Očkovaný  Male, DoB: 2000-03-21 ( National Insurance Payor Identifier (Payor))</p><hr/><table class=\"grid\"><tr><td style=\"background-color: #f3f5da\" title=\"Other Ids (see the one above)\">Other Ids:</td><td colspan=\"3\"><ul><li><code>urn:oid:1.2.203.24341.1.20.9.1</code>/A225961454</li><li>Passport number/5484136</li></ul></td></tr></table></div>"
      },
      "identifier" : [{
        "type" : {
          "coding" : [{
            "system" : "http://terminology.hl7.org/CodeSystem/v2-0203",
            "code" : "NIIP"
          }]
        },
        "system" : "urn:oid:1.2.203.24341.1.20.2",
        "value" : "740512852"
      },
      {
        "system" : "urn:oid:1.2.203.24341.1.20.9.1",
        "value" : "A225961454"
      },
      {
        "type" : {
          "coding" : [{
            "system" : "http://terminology.hl7.org/CodeSystem/v2-0203",
            "code" : "PPN"
          }]
        },
        "system" : "urn:oid:2.16.840.1.113883.4.330.203",
        "value" : "5484136"
      }],
      "name" : [{
        "family" : "Očkovaný",
        "given" : ["František"]
      }],
      "gender" : "male",
      "birthDate" : "2000-03-21"
    }
  },
  {
    "fullUrl" : "urn:uuid:3a743273-237a-446a-a8da-9e7521cce614",
    "resource" : {
      "resourceType" : "DiagnosticReport",
      "id" : "3a743273-237a-446a-a8da-9e7521cce614",
      "meta" : {
        "profile" : ["http://hl7.eu/fhir/laboratory/StructureDefinition/DiagnosticReport-eu-lab"]
      },
      "text" : {
        "status" : "generated",
        "div" : "<div xmlns=\"http://www.w3.org/1999/xhtml\"><a name=\"DiagnosticReport_3a743273-237a-446a-a8da-9e7521cce614\"> </a><p class=\"res-header-id\"><b>Generated Narrative: DiagnosticReport 3a743273-237a-446a-a8da-9e7521cce614</b></p><a name=\"3a743273-237a-446a-a8da-9e7521cce614\"> </a><a name=\"hc3a743273-237a-446a-a8da-9e7521cce614\"> </a><a name=\"3a743273-237a-446a-a8da-9e7521cce614-en-US\"> </a><h2><span title=\"Codes:{http://loinc.org 11502-2}, {http://example.org/lab-codes 3002989}\">Acute Hepatitis Panel, reflex to confirmation</span> </h2><table class=\"grid\"><tr><td>Subject</td><td>Not done yet</td></tr><tr><td>When For</td><td>2022-10-25 13:35:00+0100</td></tr><tr><td>Performer</td><td> MUDr. Aleš Procházka</td></tr></table><p><b>Report Details</b></p><table class=\"grid\"><tr><td><b>Code</b></td><td><b>Value</b></td></tr><tr><td/><td/></tr></table></div>"
      },
      "extension" : [{
        "url" : "http://hl7.org/fhir/5.0/StructureDefinition/extension-DiagnosticReport.composition",
        "valueReference" : {
          "reference" : "urn:uuid:4028a0b8-37fc-4491-a8e7-0f28e6fc59b4"
        }
      }],
      "status" : "final",
      "code" : {
        "coding" : [{
          "system" : "http://loinc.org",
          "code" : "11502-2",
          "display" : "Laboratory report"
        },
        {
          "system" : "http://example.org/lab-codes",
          "code" : "3002989",
          "display" : "Hepatitis Panel, Acute with Reflex to HBsAg Confirmation and Reflex to HCV by Quantitative NAAT"
        }],
        "text" : "Acute Hepatitis Panel, reflex to confirmation"
      },
      "subject" : {
        "reference" : "urn:uuid:8472931c-fbd0-437b-9ed1-4f66472c78b5"
      },
      "effectiveDateTime" : "2022-10-25T13:35:00+01:00",
      "performer" : [{
        "display" : "MUDr. Aleš Procházka"
      }],
      "specimen" : [{
        "reference" : "urn:uuid:3c9bd730-3ff9-40ee-9da1-4f3d5c526f13"
      }],
      "result" : [{
        "reference" : "urn:uuid:2c72163e-b741-44a3-aff7-c52f17f7a1ba"
      }]
    }
  },
  {
    "fullUrl" : "urn:uuid:3c9bd730-3ff9-40ee-9da1-4f3d5c526f13",
    "resource" : {
      "resourceType" : "Specimen",
      "id" : "3c9bd730-3ff9-40ee-9da1-4f3d5c526f13",
      "meta" : {
        "profile" : ["http://hl7.org/fhir/uv/ips/StructureDefinition/Specimen-uv-ips"]
      },
      "text" : {
        "status" : "generated",
        "div" : "<div xmlns=\"http://www.w3.org/1999/xhtml\"><a name=\"Specimen_3c9bd730-3ff9-40ee-9da1-4f3d5c526f13\"> </a><p class=\"res-header-id\"><b>Generated Narrative: Specimen 3c9bd730-3ff9-40ee-9da1-4f3d5c526f13</b></p><a name=\"3c9bd730-3ff9-40ee-9da1-4f3d5c526f13\"> </a><a name=\"hc3c9bd730-3ff9-40ee-9da1-4f3d5c526f13\"> </a><a name=\"3c9bd730-3ff9-40ee-9da1-4f3d5c526f13-en-US\"> </a><p><b>status</b>: Available</p><p><b>type</b>: <span title=\"Codes:{http://snomed.info/sct 119364003}\">Serum specimen</span></p><h3>Collections</h3><table class=\"grid\"><tr><td style=\"display: none\">-</td><td><b>Collected[x]</b></td></tr><tr><td style=\"display: none\">*</td><td>2022-10-25 13:35:00+0100</td></tr></table></div>"
      },
      "status" : "available",
      "type" : {
        "coding" : [{
          "system" : "http://snomed.info/sct",
          "code" : "119364003",
          "display" : "Serum specimen"
        }]
      },
      "collection" : {
        "collectedDateTime" : "2022-10-25T13:35:00+01:00"
      }
    }
  },
  {
    "fullUrl" : "urn:uuid:2c72163e-b741-44a3-aff7-c52f17f7a1ba",
    "resource" : {
      "resourceType" : "Observation",
      "id" : "2c72163e-b741-44a3-aff7-c52f17f7a1ba",
      "meta" : {
        "profile" : ["http://hl7.eu/fhir/laboratory/StructureDefinition/Observation-resultslab-eu-lab"]
      },
      "text" : {
        "status" : "generated",
        "div" : "<div xmlns=\"http://www.w3.org/1999/xhtml\"><a name=\"Observation_2c72163e-b741-44a3-aff7-c52f17f7a1ba\"> </a><p class=\"res-header-id\"><b>Generated Narrative: Observation 2c72163e-b741-44a3-aff7-c52f17f7a1ba</b></p><a name=\"2c72163e-b741-44a3-aff7-c52f17f7a1ba\"> </a><a name=\"hc2c72163e-b741-44a3-aff7-c52f17f7a1ba\"> </a><a name=\"2c72163e-b741-44a3-aff7-c52f17f7a1ba-en-US\"> </a><p><b>status</b>: Final</p><p><b>category</b>: <span title=\"Codes:{http://terminology.hl7.org/CodeSystem/observation-category laboratory}\">Laboratory</span></p><p><b>code</b>: <span title=\"Codes:{http://example.org/lab-codes 3002989}\">Acute Hepatitis Panel, reflex to confirmation</span></p><p><b>subject</b>: <a href=\"Bundle-BundleHepatitisPanel.html#urn-uuid-8472931c-fbd0-437b-9ed1-4f66472c78b5\">Bundle: identifier = http://example.org#V1CZ454557891308174803488707671420; type = document; timestamp = 2022-10-25 14:30:00+0100</a></p><p><b>effective</b>: 2022-10-25 13:35:00+0100</p><p><b>performer</b>: MUDr. Aleš Procházka</p><p><b>hasMember</b>: </p><ul><li><a href=\"Bundle-BundleHepatitisPanel.html#urn-uuid-104a5829-565b-46a6-85d6-36751ef79a40\">Bundle: identifier = http://example.org#V1CZ454557891308174803488707671420; type = document; timestamp = 2022-10-25 14:30:00+0100</a></li><li><a href=\"Bundle-BundleHepatitisPanel.html#urn-uuid-01b8ec35-9b20-45a4-bd41-42eeae2fd521\">Bundle: identifier = http://example.org#V1CZ454557891308174803488707671420; type = document; timestamp = 2022-10-25 14:30:00+0100</a></li><li><a href=\"Bundle-BundleHepatitisPanel.html#urn-uuid-096e27da-0768-47e4-b33c-9f1be93e1f88\">Bundle: identifier = http://example.org#V1CZ454557891308174803488707671420; type = document; timestamp = 2022-10-25 14:30:00+0100</a></li><li><a href=\"Bundle-BundleHepatitisPanel.html#urn-uuid-861e7b48-5497-410a-bed8-2cde814e09fc\">Bundle: identifier = http://example.org#V1CZ454557891308174803488707671420; type = document; timestamp = 2022-10-25 14:30:00+0100</a></li><li><a href=\"Bundle-BundleHepatitisPanel.html#urn-uuid-cc96d499-3e0e-4588-a021-4fe576766112\">Bundle: identifier = http://example.org#V1CZ454557891308174803488707671420; type = document; timestamp = 2022-10-25 14:30:00+0100</a></li></ul></div>"
      },
      "status" : "final",
      "category" : [{
        "coding" : [{
          "system" : "http://terminology.hl7.org/CodeSystem/observation-category",
          "code" : "laboratory"
        }]
      }],
      "code" : {
        "coding" : [{
          "system" : "http://example.org/lab-codes",
          "code" : "3002989",
          "display" : "Hepatitis Panel, Acute with Reflex to HBsAg Confirmation and Reflex to HCV by Quantitative NAAT"
        }],
        "text" : "Acute Hepatitis Panel, reflex to confirmation"
      },
      "subject" : {
        "reference" : "urn:uuid:8472931c-fbd0-437b-9ed1-4f66472c78b5"
      },
      "effectiveDateTime" : "2022-10-25T13:35:00+01:00",
      "performer" : [{
        "display" : "MUDr. Aleš Procházka"
      }],
      "hasMember" : [{
        "reference" : "urn:uuid:104a5829-565b-46a6-85d6-36751ef79a40"
      },
      {
        "reference" : "urn:uuid:01b8ec35-9b20-45a4-bd41-42eeae2fd521"
      },
      {
        "reference" : "urn:uuid:096e27da-0768-47e4-b33c-9f1be93e1f88"
      },
      {
        "reference" : "urn:uuid:861e7b48-5497-410a-bed8-2cde814e09fc"
      },
      {
        "reference" : "urn:uuid:cc96d499-3e0e-4588-a021-4fe576766112"
      }]
    }
  },
  {
    "fullUrl" : "urn:uuid:104a5829-565b-46a6-85d6-36751ef79a40",
    "resource" : {
      "resourceType" : "Observation",
      "id" : "104a5829-565b-46a6-85d6-36751ef79a40",
      "meta" : {
        "profile" : ["http://hl7.eu/fhir/laboratory/StructureDefinition/Observation-resultslab-eu-lab"]
      },
      "text" : {
        "status" : "generated",
        "div" : "<div xmlns=\"http://www.w3.org/1999/xhtml\"><a name=\"Observation_104a5829-565b-46a6-85d6-36751ef79a40\"> </a><p class=\"res-header-id\"><b>Generated Narrative: Observation 104a5829-565b-46a6-85d6-36751ef79a40</b></p><a name=\"104a5829-565b-46a6-85d6-36751ef79a40\"> </a><a name=\"hc104a5829-565b-46a6-85d6-36751ef79a40\"> </a><a name=\"104a5829-565b-46a6-85d6-36751ef79a40-en-US\"> </a><p><b>status</b>: Final</p><p><b>category</b>: <span title=\"Codes:{http://terminology.hl7.org/CodeSystem/observation-category laboratory}\">Laboratory</span></p><p><b>code</b>: <span title=\"Codes:{http://example.org/lab-codes 0020089}, {http://loinc.org 5196-1}\">Hepatitis B Surface Antigen</span></p><p><b>subject</b>: <a href=\"Bundle-BundleHepatitisPanel.html#urn-uuid-8472931c-fbd0-437b-9ed1-4f66472c78b5\">Bundle: identifier = http://example.org#V1CZ454557891308174803488707671420; type = document; timestamp = 2022-10-25 14:30:00+0100</a></p><p><b>effective</b>: 2022-10-25 13:35:00+0100</p><p><b>performer</b>: MUDr. Aleš Procházka</p><p><b>value</b>: <span title=\"Codes:{http://snomed.info/sct 260385009}\">Negative</span></p><p><b>interpretation</b>: <span title=\"Codes:{http://terminology.hl7.org/CodeSystem/v3-ObservationInterpretation N}\">Normal</span></p><p><b>specimen</b>: <a href=\"Bundle-BundleHepatitisPanel.html#urn-uuid-3c9bd730-3ff9-40ee-9da1-4f3d5c526f13\">Bundle: identifier = http://example.org#V1CZ454557891308174803488707671420; type = document; timestamp = 2022-10-25 14:30:00+0100</a></p><h3>ReferenceRanges</h3><table class=\"grid\"><tr><td style=\"display: none\">-</td><td><b>Type</b></td><td><b>Text</b></td></tr><tr><td style=\"display: none\">*</td><td><span title=\"Codes:{http://terminology.hl7.org/CodeSystem/referencerange-meaning normal}\">Normal Range</span></td><td>Negative</td></tr></table></div>"
      },
      "status" : "final",
      "category" : [{
        "coding" : [{
          "system" : "http://terminology.hl7.org/CodeSystem/observation-category",
          "code" : "laboratory"
        }]
      }],
      "code" : {
        "coding" : [{
          "system" : "http://example.org/lab-codes",
          "code" : "0020089",
          "display" : "Hepatitis B Surface Antigen"
        },
        {
          "system" : "http://loinc.org",
          "code" : "5196-1",
          "display" : "Hepatitis B virus surface Ag [Presence] in Serum or Plasma by Immunoassay"
        }],
        "text" : "Hepatitis B Surface Antigen"
      },
      "subject" : {
        "reference" : "urn:uuid:8472931c-fbd0-437b-9ed1-4f66472c78b5"
      },
      "effectiveDateTime" : "2022-10-25T13:35:00+01:00",
      "performer" : [{
        "display" : "MUDr. Aleš Procházka"
      }],
      "valueCodeableConcept" : {
        "coding" : [{
          "system" : "http://snomed.info/sct",
          "code" : "260385009",
          "display" : "Negative"
        }]
      },
      "interpretation" : [{
        "coding" : [{
          "system" : "http://terminology.hl7.org/CodeSystem/v3-ObservationInterpretation",
          "code" : "N",
          "display" : "Normal"
        }]
      }],
      "specimen" : {
        "reference" : "urn:uuid:3c9bd730-3ff9-40ee-9da1-4f3d5c526f13"
      },
      "referenceRange" : [{
        "type" : {
          "coding" : [{
            "system" : "http://terminology.hl7.org/CodeSystem/referencerange-meaning",
            "code" : "normal",
            "display" : "Normal Range"
          }]
        },
        "text" : "Negative"
      }]
    }
  },
  {
    "fullUrl" : "urn:uuid:01b8ec35-9b20-45a4-bd41-42eeae2fd521",
    "resource" : {
      "resourceType" : "Observation",
      "id" : "01b8ec35-9b20-45a4-bd41-42eeae2fd521",
      "meta" : {
        "profile" : ["http://hl7.eu/fhir/laboratory/StructureDefinition/Observation-resultslab-eu-lab"]
      },
      "text" : {
        "status" : "generated",
        "div" : "<div xmlns=\"http://www.w3.org/1999/xhtml\"><a name=\"Observation_01b8ec35-9b20-45a4-bd41-42eeae2fd521\"> </a><p class=\"res-header-id\"><b>Generated Narrative: Observation 01b8ec35-9b20-45a4-bd41-42eeae2fd521</b></p><a name=\"01b8ec35-9b20-45a4-bd41-42eeae2fd521\"> </a><a name=\"hc01b8ec35-9b20-45a4-bd41-42eeae2fd521\"> </a><a name=\"01b8ec35-9b20-45a4-bd41-42eeae2fd521-en-US\"> </a><p><b>status</b>: Final</p><p><b>category</b>: <span title=\"Codes:{http://terminology.hl7.org/CodeSystem/observation-category laboratory}\">Laboratory</span></p><p><b>code</b>: <span title=\"Codes:{http://example.org/lab-codes 0020092}, {http://loinc.org 24113-3}\">Hepatitis B Core Antibody, IgM</span></p><p><b>subject</b>: <a href=\"Bundle-BundleHepatitisPanel.html#urn-uuid-8472931c-fbd0-437b-9ed1-4f66472c78b5\">Bundle: identifier = http://example.org#V1CZ454557891308174803488707671420; type = document; timestamp = 2022-10-25 14:30:00+0100</a></p><p><b>effective</b>: 2022-10-25 13:35:00+0100</p><p><b>performer</b>: MUDr. Aleš Procházka</p><p><b>value</b>: <span title=\"Codes:{http://snomed.info/sct 260385009}\">Negative</span></p><p><b>interpretation</b>: <span title=\"Codes:{http://terminology.hl7.org/CodeSystem/v3-ObservationInterpretation N}\">Normal</span></p><p><b>specimen</b>: <a href=\"Bundle-BundleHepatitisPanel.html#urn-uuid-3c9bd730-3ff9-40ee-9da1-4f3d5c526f13\">Bundle: identifier = http://example.org#V1CZ454557891308174803488707671420; type = document; timestamp = 2022-10-25 14:30:00+0100</a></p><h3>ReferenceRanges</h3><table class=\"grid\"><tr><td style=\"display: none\">-</td><td><b>Type</b></td><td><b>Text</b></td></tr><tr><td style=\"display: none\">*</td><td><span title=\"Codes:{http://terminology.hl7.org/CodeSystem/referencerange-meaning normal}\">Normal Range</span></td><td>Negative</td></tr></table></div>"
      },
      "status" : "final",
      "category" : [{
        "coding" : [{
          "system" : "http://terminology.hl7.org/CodeSystem/observation-category",
          "code" : "laboratory"
        }]
      }],
      "code" : {
        "coding" : [{
          "system" : "http://example.org/lab-codes",
          "code" : "0020092",
          "display" : "Hepatitis B Core Antibody, IgM"
        },
        {
          "system" : "http://loinc.org",
          "code" : "24113-3",
          "display" : "Hepatitis B virus core IgM Ab [Presence] in Serum or Plasma by Immunoassay"
        }],
        "text" : "Hepatitis B Core Antibody, IgM"
      },
      "subject" : {
        "reference" : "urn:uuid:8472931c-fbd0-437b-9ed1-4f66472c78b5"
      },
      "effectiveDateTime" : "2022-10-25T13:35:00+01:00",
      "performer" : [{
        "display" : "MUDr. Aleš Procházka"
      }],
      "valueCodeableConcept" : {
        "coding" : [{
          "system" : "http://snomed.info/sct",
          "code" : "260385009",
          "display" : "Negative"
        }]
      },
      "interpretation" : [{
        "coding" : [{
          "system" : "http://terminology.hl7.org/CodeSystem/v3-ObservationInterpretation",
          "code" : "N",
          "display" : "Normal"
        }]
      }],
      "specimen" : {
        "reference" : "urn:uuid:3c9bd730-3ff9-40ee-9da1-4f3d5c526f13"
      },
      "referenceRange" : [{
        "type" : {
          "coding" : [{
            "system" : "http://terminology.hl7.org/CodeSystem/referencerange-meaning",
            "code" : "normal",
            "display" : "Normal Range"
          }]
        },
        "text" : "Negative"
      }]
    }
  },
  {
    "fullUrl" : "urn:uuid:096e27da-0768-47e4-b33c-9f1be93e1f88",
    "resource" : {
      "resourceType" : "Observation",
      "id" : "096e27da-0768-47e4-b33c-9f1be93e1f88",
      "meta" : {
        "profile" : ["http://hl7.eu/fhir/laboratory/StructureDefinition/Observation-resultslab-eu-lab"]
      },
      "text" : {
        "status" : "generated",
        "div" : "<div xmlns=\"http://www.w3.org/1999/xhtml\"><a name=\"Observation_096e27da-0768-47e4-b33c-9f1be93e1f88\"> </a><p class=\"res-header-id\"><b>Generated Narrative: Observation 096e27da-0768-47e4-b33c-9f1be93e1f88</b></p><a name=\"096e27da-0768-47e4-b33c-9f1be93e1f88\"> </a><a name=\"hc096e27da-0768-47e4-b33c-9f1be93e1f88\"> </a><a name=\"096e27da-0768-47e4-b33c-9f1be93e1f88-en-US\"> </a><p><b>status</b>: Final</p><p><b>category</b>: <span title=\"Codes:{http://terminology.hl7.org/CodeSystem/observation-category laboratory}\">Laboratory</span></p><p><b>code</b>: <span title=\"Codes:{http://example.org/lab-codes 0020093}, {http://loinc.org 13950-1}\">Hepatitis A Antibody, IgM</span></p><p><b>subject</b>: <a href=\"Bundle-BundleHepatitisPanel.html#urn-uuid-8472931c-fbd0-437b-9ed1-4f66472c78b5\">Bundle: identifier = http://example.org#V1CZ454557891308174803488707671420; type = document; timestamp = 2022-10-25 14:30:00+0100</a></p><p><b>effective</b>: 2022-10-25 13:35:00+0100</p><p><b>performer</b>: MUDr. Aleš Procházka</p><p><b>value</b>: <span title=\"Codes:{http://snomed.info/sct 260385009}\">Negative</span></p><p><b>interpretation</b>: <span title=\"Codes:{http://terminology.hl7.org/CodeSystem/v3-ObservationInterpretation N}\">Normal</span></p><p><b>specimen</b>: <a href=\"Bundle-BundleHepatitisPanel.html#urn-uuid-3c9bd730-3ff9-40ee-9da1-4f3d5c526f13\">Bundle: identifier = http://example.org#V1CZ454557891308174803488707671420; type = document; timestamp = 2022-10-25 14:30:00+0100</a></p><h3>ReferenceRanges</h3><table class=\"grid\"><tr><td style=\"display: none\">-</td><td><b>Type</b></td><td><b>Text</b></td></tr><tr><td style=\"display: none\">*</td><td><span title=\"Codes:{http://terminology.hl7.org/CodeSystem/referencerange-meaning normal}\">Normal Range</span></td><td>Negative</td></tr></table></div>"
      },
      "status" : "final",
      "category" : [{
        "coding" : [{
          "system" : "http://terminology.hl7.org/CodeSystem/observation-category",
          "code" : "laboratory"
        }]
      }],
      "code" : {
        "coding" : [{
          "system" : "http://example.org/lab-codes",
          "code" : "0020093",
          "display" : "Hepatitis A Antibody, IgM"
        },
        {
          "system" : "http://loinc.org",
          "code" : "13950-1",
          "display" : "Hepatitis A virus IgM Ab [Presence] in Serum or Plasma by Immunoassay"
        }],
        "text" : "Hepatitis A Antibody, IgM"
      },
      "subject" : {
        "reference" : "urn:uuid:8472931c-fbd0-437b-9ed1-4f66472c78b5"
      },
      "effectiveDateTime" : "2022-10-25T13:35:00+01:00",
      "performer" : [{
        "display" : "MUDr. Aleš Procházka"
      }],
      "valueCodeableConcept" : {
        "coding" : [{
          "system" : "http://snomed.info/sct",
          "code" : "260385009",
          "display" : "Negative"
        }]
      },
      "interpretation" : [{
        "coding" : [{
          "system" : "http://terminology.hl7.org/CodeSystem/v3-ObservationInterpretation",
          "code" : "N",
          "display" : "Normal"
        }]
      }],
      "specimen" : {
        "reference" : "urn:uuid:3c9bd730-3ff9-40ee-9da1-4f3d5c526f13"
      },
      "referenceRange" : [{
        "type" : {
          "coding" : [{
            "system" : "http://terminology.hl7.org/CodeSystem/referencerange-meaning",
            "code" : "normal",
            "display" : "Normal Range"
          }]
        },
        "text" : "Negative"
      }]
    }
  },
  {
    "fullUrl" : "urn:uuid:861e7b48-5497-410a-bed8-2cde814e09fc",
    "resource" : {
      "resourceType" : "Observation",
      "id" : "861e7b48-5497-410a-bed8-2cde814e09fc",
      "meta" : {
        "profile" : ["http://hl7.eu/fhir/laboratory/StructureDefinition/Observation-resultslab-eu-lab"]
      },
      "text" : {
        "status" : "generated",
        "div" : "<div xmlns=\"http://www.w3.org/1999/xhtml\"><a name=\"Observation_861e7b48-5497-410a-bed8-2cde814e09fc\"> </a><p class=\"res-header-id\"><b>Generated Narrative: Observation 861e7b48-5497-410a-bed8-2cde814e09fc</b></p><a name=\"861e7b48-5497-410a-bed8-2cde814e09fc\"> </a><a name=\"hc861e7b48-5497-410a-bed8-2cde814e09fc\"> </a><a name=\"861e7b48-5497-410a-bed8-2cde814e09fc-en-US\"> </a><p><b>status</b>: Final</p><p><b>category</b>: <span title=\"Codes:{http://terminology.hl7.org/CodeSystem/observation-category laboratory}\">Laboratory</span></p><p><b>code</b>: <span title=\"Codes:{http://example.org/lab-codes 3003128}, {http://loinc.org 13955-0}\">Hepatitis C Antibody by CIA Interp</span></p><p><b>subject</b>: <a href=\"Bundle-BundleHepatitisPanel.html#urn-uuid-8472931c-fbd0-437b-9ed1-4f66472c78b5\">Bundle: identifier = http://example.org#V1CZ454557891308174803488707671420; type = document; timestamp = 2022-10-25 14:30:00+0100</a></p><p><b>effective</b>: 2022-10-25 13:35:00+0100</p><p><b>performer</b>: MUDr. Aleš Procházka</p><p><b>value</b>: <span title=\"Codes:{http://snomed.info/sct 10828004}\">Positive</span></p><p><b>interpretation</b>: <span title=\"Codes:{http://terminology.hl7.org/CodeSystem/v3-ObservationInterpretation A}\">Abnormal</span></p><p><b>specimen</b>: <a href=\"Bundle-BundleHepatitisPanel.html#urn-uuid-3c9bd730-3ff9-40ee-9da1-4f3d5c526f13\">Bundle: identifier = http://example.org#V1CZ454557891308174803488707671420; type = document; timestamp = 2022-10-25 14:30:00+0100</a></p><h3>ReferenceRanges</h3><table class=\"grid\"><tr><td style=\"display: none\">-</td><td><b>Type</b></td><td><b>Text</b></td></tr><tr><td style=\"display: none\">*</td><td><span title=\"Codes:{http://terminology.hl7.org/CodeSystem/referencerange-meaning normal}\">Normal Range</span></td><td>Negative</td></tr></table></div>"
      },
      "status" : "final",
      "category" : [{
        "coding" : [{
          "system" : "http://terminology.hl7.org/CodeSystem/observation-category",
          "code" : "laboratory"
        }]
      }],
      "code" : {
        "coding" : [{
          "system" : "http://example.org/lab-codes",
          "code" : "3003128",
          "display" : "Hepatitis C Antibody by CIA Interp"
        },
        {
          "system" : "http://loinc.org",
          "code" : "13955-0",
          "display" : "Hepatitis C virus Ab [Presence] in Serum or Plasma by Immunoassay"
        }],
        "text" : "Hepatitis C Antibody by CIA Interp"
      },
      "subject" : {
        "reference" : "urn:uuid:8472931c-fbd0-437b-9ed1-4f66472c78b5"
      },
      "effectiveDateTime" : "2022-10-25T13:35:00+01:00",
      "performer" : [{
        "display" : "MUDr. Aleš Procházka"
      }],
      "valueCodeableConcept" : {
        "coding" : [{
          "system" : "http://snomed.info/sct",
          "code" : "10828004",
          "display" : "Positive"
        }]
      },
      "interpretation" : [{
        "coding" : [{
          "system" : "http://terminology.hl7.org/CodeSystem/v3-ObservationInterpretation",
          "code" : "A",
          "display" : "Abnormal"
        }]
      }],
      "specimen" : {
        "reference" : "urn:uuid:3c9bd730-3ff9-40ee-9da1-4f3d5c526f13"
      },
      "referenceRange" : [{
        "type" : {
          "coding" : [{
            "system" : "http://terminology.hl7.org/CodeSystem/referencerange-meaning",
            "code" : "normal",
            "display" : "Normal Range"
          }]
        },
        "text" : "Negative"
      }]
    }
  },
  {
    "fullUrl" : "urn:uuid:cc96d499-3e0e-4588-a021-4fe576766112",
    "resource" : {
      "resourceType" : "Observation",
      "id" : "cc96d499-3e0e-4588-a021-4fe576766112",
      "meta" : {
        "profile" : ["http://hl7.eu/fhir/laboratory/StructureDefinition/Observation-resultslab-eu-lab"]
      },
      "text" : {
        "status" : "generated",
        "div" : "<div xmlns=\"http://www.w3.org/1999/xhtml\"><a name=\"Observation_cc96d499-3e0e-4588-a021-4fe576766112\"> </a><p class=\"res-header-id\"><b>Generated Narrative: Observation cc96d499-3e0e-4588-a021-4fe576766112</b></p><a name=\"cc96d499-3e0e-4588-a021-4fe576766112\"> </a><a name=\"hccc96d499-3e0e-4588-a021-4fe576766112\"> </a><a name=\"cc96d499-3e0e-4588-a021-4fe576766112-en-US\"> </a><p><b>status</b>: Final</p><p><b>category</b>: <span title=\"Codes:{http://terminology.hl7.org/CodeSystem/observation-category laboratory}\">Laboratory</span></p><p><b>code</b>: <span title=\"Codes:{http://example.org/lab-codes 2002404}, {http://loinc.org 57006-9}\">Hepatitis C Antibody by CIA Index</span></p><p><b>subject</b>: <a href=\"Bundle-BundleHepatitisPanel.html#urn-uuid-8472931c-fbd0-437b-9ed1-4f66472c78b5\">Bundle: identifier = http://example.org#V1CZ454557891308174803488707671420; type = document; timestamp = 2022-10-25 14:30:00+0100</a></p><p><b>effective</b>: 2022-10-25 13:35:00+0100</p><p><b>performer</b>: MUDr. Aleš Procházka</p><p><b>value</b>: 9.89 IV<span style=\"background: LightGoldenRodYellow\"> (Details: UCUM  code[arb'U]/mL = '[arb'U]/mL')</span></p><p><b>interpretation</b>: <span title=\"Codes:{http://terminology.hl7.org/CodeSystem/v3-ObservationInterpretation H}\">Low Positive</span></p><p><b>specimen</b>: <a href=\"Bundle-BundleHepatitisPanel.html#urn-uuid-3c9bd730-3ff9-40ee-9da1-4f3d5c526f13\">Bundle: identifier = http://example.org#V1CZ454557891308174803488707671420; type = document; timestamp = 2022-10-25 14:30:00+0100</a></p><blockquote><p><b>referenceRange</b></p><p><b>high</b>: 0.79 IV<span style=\"background: LightGoldenRodYellow\"> (Details: UCUM  code[arb'U]/mL = '[arb'U]/mL')</span></p><p><b>type</b>: <span title=\"Codes:{http://terminology.hl7.org/CodeSystem/referencerange-meaning normal}\">Normal Range</span></p></blockquote><blockquote><p><b>referenceRange</b></p><p><b>low</b>: 0.8 IV<span style=\"background: LightGoldenRodYellow\"> (Details: UCUM  code[arb'U]/mL = '[arb'U]/mL')</span></p><p><b>high</b>: 0.99 IV<span style=\"background: LightGoldenRodYellow\"> (Details: UCUM  code[arb'U]/mL = '[arb'U]/mL')</span></p><p><b>type</b>: <span title=\"Codes:\">Equivocal</span></p></blockquote><blockquote><p><b>referenceRange</b></p><p><b>low</b>: 1 IV<span style=\"background: LightGoldenRodYellow\"> (Details: UCUM  code[arb'U]/mL = '[arb'U]/mL')</span></p><p><b>high</b>: 10.99 IV<span style=\"background: LightGoldenRodYellow\"> (Details: UCUM  code[arb'U]/mL = '[arb'U]/mL')</span></p><p><b>type</b>: <span title=\"Codes:\">Low Positive</span></p></blockquote><blockquote><p><b>referenceRange</b></p><p><b>low</b>: 11 IV<span style=\"background: LightGoldenRodYellow\"> (Details: UCUM  code[arb'U]/mL = '[arb'U]/mL')</span></p><p><b>type</b>: <span title=\"Codes:\">High Positive</span></p></blockquote></div>"
      },
      "status" : "final",
      "category" : [{
        "coding" : [{
          "system" : "http://terminology.hl7.org/CodeSystem/observation-category",
          "code" : "laboratory"
        }]
      }],
      "code" : {
        "coding" : [{
          "system" : "http://example.org/lab-codes",
          "code" : "2002404",
          "display" : "Hepatitis C Antibody by CIA Index"
        },
        {
          "system" : "http://loinc.org",
          "code" : "57006-9",
          "display" : "Hepatitis C virus IgG Ab [Units/volume] in Serum by Immunoassay"
        }],
        "text" : "Hepatitis C Antibody by CIA Index"
      },
      "subject" : {
        "reference" : "urn:uuid:8472931c-fbd0-437b-9ed1-4f66472c78b5"
      },
      "effectiveDateTime" : "2022-10-25T13:35:00+01:00",
      "performer" : [{
        "display" : "MUDr. Aleš Procházka"
      }],
      "valueQuantity" : {
        "value" : 9.89,
        "unit" : "IV",
        "system" : "http://unitsofmeasure.org",
        "code" : "[arb'U]/mL"
      },
      "interpretation" : [{
        "coding" : [{
          "system" : "http://terminology.hl7.org/CodeSystem/v3-ObservationInterpretation",
          "code" : "H",
          "display" : "High"
        }],
        "text" : "Low Positive"
      }],
      "specimen" : {
        "reference" : "urn:uuid:3c9bd730-3ff9-40ee-9da1-4f3d5c526f13"
      },
      "referenceRange" : [{
        "high" : {
          "value" : 0.79,
          "unit" : "IV",
          "system" : "http://unitsofmeasure.org",
          "code" : "[arb'U]/mL"
        },
        "type" : {
          "coding" : [{
            "system" : "http://terminology.hl7.org/CodeSystem/referencerange-meaning",
            "code" : "normal",
            "display" : "Normal Range"
          }]
        }
      },
      {
        "low" : {
          "value" : 0.8,
          "unit" : "IV",
          "system" : "http://unitsofmeasure.org",
          "code" : "[arb'U]/mL"
        },
        "high" : {
          "value" : 0.99,
          "unit" : "IV",
          "system" : "http://unitsofmeasure.org",
          "code" : "[arb'U]/mL"
        },
        "type" : {
          "text" : "Equivocal"
        }
      },
      {
        "low" : {
          "value" : 1,
          "unit" : "IV",
          "system" : "http://unitsofmeasure.org",
          "code" : "[arb'U]/mL"
        },
        "high" : {
          "value" : 10.99,
          "unit" : "IV",
          "system" : "http://unitsofmeasure.org",
          "code" : "[arb'U]/mL"
        },
        "type" : {
          "text" : "Low Positive"
        }
      },
      {
        "low" : {
          "value" : 11,
          "unit" : "IV",
          "system" : "http://unitsofmeasure.org",
          "code" : "[arb'U]/mL"
        },
        "type" : {
          "text" : "High Positive"
        }
      }]
    }
  },
  {
    "fullUrl" : "urn:uuid:608b5309-2609-4d03-b6da-c758bfa1de70",
    "resource" : {
      "resourceType" : "Organization",
      "id" : "608b5309-2609-4d03-b6da-c758bfa1de70",
      "text" : {
        "status" : "generated",
        "div" : "<div xmlns=\"http://www.w3.org/1999/xhtml\"><a name=\"Organization_608b5309-2609-4d03-b6da-c758bfa1de70\"> </a><p class=\"res-header-id\"><b>Generated Narrative: Organization 608b5309-2609-4d03-b6da-c758bfa1de70</b></p><a name=\"608b5309-2609-4d03-b6da-c758bfa1de70\"> </a><a name=\"hc608b5309-2609-4d03-b6da-c758bfa1de70\"> </a><a name=\"608b5309-2609-4d03-b6da-c758bfa1de70-en-US\"> </a><p><b>identifier</b>: <code>http://example.org/czech-orgs</code>/24341</p><p><b>name</b>: Ministry of Health of the Czech Republic</p></div>"
      },
      "identifier" : [{
        "system" : "http://example.org/czech-orgs",
        "value" : "24341"
      }],
      "name" : "Ministry of Health of the Czech Republic"
    }
  }]
}